Time, Angle[deg], Gain[dBi], Freq[Hz], Prx[dBm]
4034.306,0.000,-2.453,436000000.000,-49.121
4034.803,1.000,-2.452,436000000.000,-49.120
4035.306,2.000,-2.459,436000000.000,-49.127
4035.854,3.000,-2.419,436000000.000,-49.087
4036.380,4.000,-2.425,435999839.744,-49.093
4036.903,5.000,-2.379,436000000.000,-49.047
4037.439,6.000,-2.397,436000000.000,-49.066
4037.958,7.000,-2.374,435999839.744,-49.042
4038.500,8.000,-2.393,435999839.744,-49.062
4039.049,9.000,-2.352,435999839.744,-49.020
4039.578,10.000,-2.378,436000000.000,-49.046
4040.127,11.000,-2.355,435999839.744,-49.023
4040.670,12.000,-2.380,436000000.000,-49.049
4041.203,13.000,-2.365,435999839.744,-49.033
4041.735,14.000,-2.397,435999839.744,-49.065
4042.289,15.000,-2.391,435999839.744,-49.059
4042.815,16.000,-2.435,436000000.000,-49.103
4043.311,17.000,-2.416,435999839.744,-49.084
4043.826,18.000,-2.468,436000000.000,-49.136
4044.336,19.000,-2.457,436000000.000,-49.125
4044.885,20.000,-2.488,435999839.744,-49.156
4045.441,21.000,-2.485,436000000.000,-49.153
4045.985,22.000,-2.543,436000000.000,-49.211
4046.518,23.000,-2.519,436000000.000,-49.187
4047.071,24.000,-2.569,436000000.000,-49.238
4047.612,25.000,-2.579,436000000.000,-49.248
4048.178,26.000,-2.619,436000000.000,-49.288
4048.724,27.000,-2.620,436000000.000,-49.288
4049.280,28.000,-2.645,436000000.000,-49.314
4049.820,29.000,-2.658,435999839.744,-49.326
4050.370,30.000,-2.690,436000000.000,-49.358
4050.903,31.000,-2.707,436000000.000,-49.375
4051.404,32.000,-2.735,436000000.000,-49.403
4051.914,33.000,-2.755,435999839.744,-49.424
4052.430,34.000,-2.782,435999839.744,-49.450
4052.972,35.000,-2.779,435999839.744,-49.447
4053.531,36.000,-2.800,436000000.000,-49.468
4054.072,37.000,-2.809,436000000.000,-49.478
4054.632,38.000,-2.829,435999839.744,-49.497
4055.177,39.000,-2.840,436000000.000,-49.508
4055.724,40.000,-2.856,436000000.000,-49.524
4056.252,41.000,-2.850,436000000.000,-49.519
4056.792,42.000,-2.876,435999839.744,-49.544
4057.332,43.000,-2.878,435999839.744,-49.546
4057.775,44.000,-2.887,436000000.000,-49.555
4058.186,45.000,-2.887,436000000.000,-49.555
4058.637,46.000,-2.882,436000000.000,-49.550
4059.113,47.000,-2.904,436000000.000,-49.572
4059.598,48.000,-2.889,436000000.000,-49.557
4060.090,49.000,-2.896,436000000.000,-49.564
4060.611,50.000,-2.911,436000000.000,-49.579
4061.124,51.000,-2.921,436000000.000,-49.589
4061.666,52.000,-2.903,436000000.000,-49.572
4062.214,53.000,-2.934,436000000.000,-49.602
4062.758,54.000,-2.935,436000000.000,-49.603
4063.331,55.000,-2.940,435999839.744,-49.608
4063.899,56.000,-2.925,436000000.000,-49.593
4064.474,57.000,-2.937,436000000.000,-49.605
4065.060,58.000,-2.925,436000000.000,-49.593
4065.638,59.000,-2.926,435999839.744,-49.594
4066.228,60.000,-2.918,436000000.000,-49.587
4066.812,61.000,-2.925,436000000.000,-49.593
4067.326,62.000,-2.906,435999839.744,-49.575
4067.845,63.000,-2.911,436000000.000,-49.579
4068.343,64.000,-2.890,436000000.000,-49.558
4068.867,65.000,-2.905,436000000.000,-49.574
4069.417,66.000,-2.876,436000000.000,-49.544
4069.965,67.000,-2.871,436000000.000,-49.539
4070.510,68.000,-2.846,436000000.000,-49.515
4071.028,69.000,-2.829,436000000.000,-49.498
4071.587,70.000,-2.804,436000000.000,-49.472
4072.111,71.000,-2.787,436000000.000,-49.455
4072.636,72.000,-2.762,435999839.744,-49.430
4073.172,73.000,-2.732,436000000.000,-49.401
4073.709,74.000,-2.694,436000000.000,-49.363
4074.202,75.000,-2.663,436000000.000,-49.331
4074.689,76.000,-2.636,436000000.000,-49.305
4075.193,77.000,-2.589,436000000.000,-49.258
4075.731,78.000,-2.539,436000000.000,-49.208
4076.260,79.000,-2.493,436000000.000,-49.161
4076.785,80.000,-2.438,436000000.000,-49.106
4077.323,81.000,-2.364,436000000.000,-49.032
4077.860,82.000,-2.348,435999839.744,-49.016
4078.390,83.000,-2.262,436000000.000,-48.930
4078.908,84.000,-2.221,436000000.000,-48.890
4079.440,85.000,-2.160,435999839.744,-48.829
4079.978,86.000,-2.097,436000000.000,-48.765
4080.524,87.000,-2.028,436000000.000,-48.697
4081.054,88.000,-1.974,436000000.000,-48.643
4081.581,89.000,-1.921,436000000.000,-48.590
4082.099,90.000,-1.890,436000000.000,-48.558
4082.644,91.000,-1.829,435999839.744,-48.498
4083.177,92.000,-1.801,436000000.000,-48.470
4083.695,93.000,-1.770,436000000.000,-48.439
4084.226,94.000,-1.738,436000000.000,-48.406
4084.744,95.000,-1.723,436000000.000,-48.392
4085.280,96.000,-1.708,436000000.000,-48.377
4085.811,97.000,-1.693,436000000.000,-48.361
4086.342,98.000,-1.699,435999839.744,-48.368
4086.875,99.000,-1.705,436000000.000,-48.373
4087.405,100.000,-1.715,435999839.744,-48.383
4087.935,101.000,-1.737,436000000.000,-48.406
4088.478,102.000,-1.771,436000000.000,-48.440
4088.991,103.000,-1.823,436000000.000,-48.492
4089.517,104.000,-1.867,436000000.000,-48.535
4090.057,105.000,-1.933,436000000.000,-48.601
4090.603,106.000,-1.993,436000000.000,-48.661
4091.123,107.000,-2.067,436000000.000,-48.736
4091.628,108.000,-2.153,436000000.000,-48.821
4092.152,109.000,-2.246,436000000.000,-48.914
4092.712,110.000,-2.347,436000000.000,-49.015
4093.260,111.000,-2.466,435999839.744,-49.134
4093.804,112.000,-2.594,436000000.000,-49.262
4094.325,113.000,-2.720,436000000.000,-49.388
4094.867,114.000,-2.866,436000000.000,-49.535
4095.394,115.000,-3.025,436000000.000,-49.693
4095.935,116.000,-3.175,436000000.000,-49.843
4096.494,117.000,-3.355,436000000.000,-50.023
4097.036,118.000,-3.539,436000000.000,-50.208
4097.564,119.000,-3.721,436000000.000,-50.389
4098.117,120.000,-3.931,436000000.000,-50.599
4098.622,121.000,-4.121,436000000.000,-50.789
4099.145,122.000,-4.341,436000000.000,-51.009
4099.671,123.000,-4.557,436000000.000,-51.225
4100.216,124.000,-4.801,436000000.000,-51.470
4100.791,125.000,-5.048,436000000.000,-51.717
4101.317,126.000,-5.263,436000000.000,-51.932
4101.852,127.000,-5.532,436000000.000,-52.200
4102.375,128.000,-5.770,436000000.000,-52.439
4102.932,129.000,-6.027,436000000.000,-52.695
4103.471,130.000,-6.304,435999839.744,-52.972
4104.004,131.000,-6.557,436000000.000,-53.225
4104.526,132.000,-6.800,435999839.744,-53.468
4105.064,133.000,-7.035,435999839.744,-53.704
4105.594,134.000,-7.267,435999839.744,-53.935
4106.133,135.000,-7.437,436000000.000,-54.105
4106.618,136.000,-7.625,436000000.000,-54.294
4107.117,137.000,-7.789,435999839.744,-54.457
4107.642,138.000,-7.960,435999839.744,-54.629
4108.153,139.000,-8.039,436000000.000,-54.708
4108.693,140.000,-8.156,436000000.000,-54.825
4109.244,141.000,-8.219,436000000.000,-54.888
4109.805,142.000,-8.218,436000000.000,-54.887
4110.365,143.000,-8.161,436000000.000,-54.829
4110.918,144.000,-8.129,436000000.000,-54.797
4111.484,145.000,-7.994,436000000.000,-54.662
4112.020,146.000,-7.890,436000000.000,-54.558
4112.571,147.000,-7.681,436000000.000,-54.350
4113.107,148.000,-7.554,435999839.744,-54.223
4113.651,149.000,-7.286,436000000.000,-53.954
4114.195,150.000,-7.087,436000000.000,-53.756
4114.697,151.000,-6.837,436000000.000,-53.505
4115.216,152.000,-6.604,436000000.000,-53.272
4115.759,153.000,-6.356,436000000.000,-53.025
4116.300,154.000,-6.088,436000000.000,-52.756
4116.834,155.000,-5.789,436000000.000,-52.458
4117.366,156.000,-5.542,436000000.000,-52.210
4117.894,157.000,-5.293,435999839.744,-51.962
4118.447,158.000,-5.015,436000000.000,-51.683
4119.002,159.000,-4.758,436000000.000,-51.426
4119.555,160.000,-4.503,435999839.744,-51.171
4120.125,161.000,-4.242,436000000.000,-50.910
4120.690,162.000,-4.004,435999839.744,-50.673
4121.231,163.000,-3.781,436000000.000,-50.450
4121.781,164.000,-3.564,435999839.744,-50.233
4122.327,165.000,-3.341,436000000.000,-50.009
4122.829,166.000,-3.153,436000000.000,-49.822
4123.354,167.000,-2.965,436000000.000,-49.633
4123.884,168.000,-2.778,435999839.744,-49.446
4124.389,169.000,-2.605,436000000.000,-49.274
4124.924,170.000,-2.437,436000000.000,-49.106
4125.456,171.000,-2.267,436000000.000,-48.935
4126.000,172.000,-2.103,436000000.000,-48.772
4126.568,173.000,-1.938,436000000.000,-48.606
4127.133,174.000,-1.777,436000000.000,-48.445
4127.664,175.000,-1.643,436000000.000,-48.312
4128.200,176.000,-1.500,436000000.000,-48.169
4128.735,177.000,-1.378,436000000.000,-48.046
4129.272,178.000,-1.251,435999839.744,-47.919
4129.811,179.000,-1.126,435999839.744,-47.794
4130.374,180.000,-1.015,435999839.744,-47.684
4130.908,181.000,-0.897,436000000.000,-47.565
4131.454,182.000,-0.785,436000000.000,-47.454
4131.994,183.000,-0.680,436000000.000,-47.348
4132.522,184.000,-0.583,435999839.744,-47.252
4133.083,185.000,-0.479,436000000.000,-47.147
4133.625,186.000,-0.392,435999839.744,-47.061
4134.178,187.000,-0.298,436000000.000,-46.966
4134.728,188.000,-0.222,436000000.000,-46.890
4135.256,189.000,-0.145,435999839.744,-46.814
4135.798,190.000,-0.074,436000000.000,-46.743
4136.342,191.000,-0.009,436000000.000,-46.678
4136.883,192.000,0.055,436000000.000,-46.613
4137.444,193.000,0.111,436000000.000,-46.557
4137.970,194.000,0.160,435999839.744,-46.508
4138.526,195.000,0.209,435999839.744,-46.459
4139.055,196.000,0.248,435999839.744,-46.420
4139.570,197.000,0.278,436000000.000,-46.390
4140.103,198.000,0.305,436000000.000,-46.363
4140.648,199.000,0.326,435999839.744,-46.342
4141.194,200.000,0.348,436000000.000,-46.320
4141.748,201.000,0.349,436000000.000,-46.319
4142.268,202.000,0.354,435999839.744,-46.314
4142.818,203.000,0.361,436000000.000,-46.307
4143.354,204.000,0.356,436000000.000,-46.313
4143.898,205.000,0.349,436000000.000,-46.319
4144.433,206.000,0.332,435999839.744,-46.337
4144.998,207.000,0.305,436000000.000,-46.363
4145.545,208.000,0.280,436000000.000,-46.389
4146.075,209.000,0.255,436000000.000,-46.413
4146.606,210.000,0.217,436000000.000,-46.452
4147.164,211.000,0.174,435999839.744,-46.494
4147.700,212.000,0.128,435999839.744,-46.540
4148.228,213.000,0.089,436000000.000,-46.579
4148.787,214.000,0.038,436000000.000,-46.631
4149.311,215.000,-0.003,436000000.000,-46.672
4149.841,216.000,-0.065,436000000.000,-46.733
4150.385,217.000,-0.114,435999839.744,-46.782
4150.930,218.000,-0.176,436000000.000,-46.844
4151.478,219.000,-0.228,435999839.744,-46.896
4152.011,220.000,-0.295,436000000.000,-46.963
4152.547,221.000,-0.357,435999839.744,-47.026
4153.081,222.000,-0.425,436000000.000,-47.093
4153.630,223.000,-0.499,436000000.000,-47.167
4154.178,224.000,-0.561,436000000.000,-47.229
4154.716,225.000,-0.632,435999839.744,-47.301
4155.253,226.000,-0.702,435999839.744,-47.370
4155.780,227.000,-0.750,435999839.744,-47.419
4156.313,228.000,-0.827,436000000.000,-47.495
4156.836,229.000,-0.885,436000000.000,-47.553
4157.391,230.000,-0.953,436000000.000,-47.621
4157.943,231.000,-1.011,436000000.000,-47.680
4158.478,232.000,-1.075,436000000.000,-47.743
4159.008,233.000,-1.143,435999839.744,-47.812
4159.546,234.000,-1.211,436000000.000,-47.879
4160.090,235.000,-1.260,436000000.000,-47.928
4160.632,236.000,-1.328,436000000.000,-47.996
4161.178,237.000,-1.395,436000000.000,-48.063
4161.731,238.000,-1.463,436000000.000,-48.131
4162.264,239.000,-1.525,435999839.744,-48.193
4162.808,240.000,-1.573,435999839.744,-48.241
4163.344,241.000,-1.637,436000000.000,-48.305
4163.896,242.000,-1.696,436000000.000,-48.364
4164.453,243.000,-1.761,436000000.000,-48.430
4164.987,244.000,-1.819,436000000.000,-48.487
4165.532,245.000,-1.885,436000000.000,-48.554
4166.083,246.000,-1.950,436000000.000,-48.618
4166.616,247.000,-2.028,436000000.000,-48.696
4167.165,248.000,-2.100,435999839.744,-48.768
4167.706,249.000,-2.172,436000000.000,-48.840
4168.264,250.000,-2.247,435999839.744,-48.916
4168.818,251.000,-2.326,436000000.000,-48.995
4169.352,252.000,-2.422,436000000.000,-49.090
4169.897,253.000,-2.506,436000000.000,-49.174
4170.462,254.000,-2.609,436000000.000,-49.277
4170.982,255.000,-2.699,436000000.000,-49.368
4171.493,256.000,-2.799,436000000.000,-49.467
4172.034,257.000,-2.896,436000000.000,-49.565
4172.551,258.000,-3.008,436000000.000,-49.677
4173.110,259.000,-3.147,436000000.000,-49.815
4173.652,260.000,-3.277,435999839.744,-49.946
4174.190,261.000,-3.419,436000000.000,-50.088
4174.749,262.000,-3.561,435999839.744,-50.230
4175.314,263.000,-3.710,435999839.744,-50.378
4175.843,264.000,-3.888,436000000.000,-50.556
4176.404,265.000,-4.067,436000000.000,-50.735
4176.966,266.000,-4.261,436000000.000,-50.929
4177.529,267.000,-4.484,436000000.000,-51.152
4178.076,268.000,-4.670,436000000.000,-51.339
4178.620,269.000,-4.902,436000000.000,-51.571
4179.168,270.000,-5.128,435999839.744,-51.797
4179.693,271.000,-5.429,436000000.000,-52.097
4180.228,272.000,-5.661,436000000.000,-52.330
4180.753,273.000,-5.965,436000000.000,-52.634
4181.293,274.000,-6.270,436000000.000,-52.939
4181.832,275.000,-6.623,435999839.744,-53.291
4182.397,276.000,-7.004,435999839.744,-53.673
4182.944,277.000,-7.381,436000000.000,-54.050
4183.498,278.000,-7.780,436000000.000,-54.448
4184.039,279.000,-8.289,436000000.000,-54.957
4184.580,280.000,-8.761,436000000.000,-55.429
4185.149,281.000,-9.372,436000000.000,-56.040
4185.697,282.000,-9.948,436000000.000,-56.617
4186.235,283.000,-10.587,436000000.000,-57.255
4186.790,284.000,-11.242,436000000.000,-57.910
4187.330,285.000,-12.069,436000000.000,-58.737
4187.844,286.000,-12.823,436000000.000,-59.492
4188.361,287.000,-13.682,436000000.000,-60.350
4188.880,288.000,-14.591,436000000.000,-61.260
4189.437,289.000,-15.619,436000000.000,-62.287
4189.990,290.000,-16.558,436000000.000,-63.226
4190.535,291.000,-17.563,436000000.000,-64.231
4191.084,292.000,-18.283,436000000.000,-64.951
4191.633,293.000,-18.882,436000000.000,-65.551
4192.161,294.000,-18.898,436000000.000,-65.566
4192.717,295.000,-18.566,435999839.744,-65.235
4193.248,296.000,-17.817,436000000.000,-64.485
4193.782,297.000,-16.921,435999839.744,-63.590
4194.320,298.000,-15.960,436000000.000,-62.628
4194.846,299.000,-14.995,435999839.744,-61.664
4195.372,300.000,-14.130,436000000.000,-60.799
4195.922,301.000,-13.284,436000000.000,-59.953
4196.488,302.000,-12.442,435999839.744,-59.110
4197.037,303.000,-11.693,436000000.000,-58.361
4197.568,304.000,-11.078,436000000.000,-57.747
4198.116,305.000,-10.495,436000000.000,-57.163
4198.655,306.000,-9.938,436000000.000,-56.606
4199.226,307.000,-9.455,436000000.000,-56.124
4199.769,308.000,-9.023,436000000.000,-55.691
4200.296,309.000,-8.643,436000000.000,-55.311
4200.826,310.000,-8.255,436000000.000,-54.924
4201.371,311.000,-7.912,436000000.000,-54.580
4201.899,312.000,-7.603,435999839.744,-54.271
4202.448,313.000,-7.299,435999839.744,-53.968
4202.972,314.000,-7.037,436000000.000,-53.705
4203.481,315.000,-6.798,435999839.744,-53.467
4204.000,316.000,-6.579,435999839.744,-53.247
4204.536,317.000,-6.355,436000000.000,-53.023
4205.060,318.000,-6.164,436000000.000,-52.833
4205.597,319.000,-5.987,436000000.000,-52.655
4206.158,320.000,-5.780,435999839.744,-52.448
4206.720,321.000,-5.606,436000000.000,-52.274
4207.258,322.000,-5.433,436000000.000,-52.101
4207.784,323.000,-5.293,436000000.000,-51.961
4208.335,324.000,-5.131,436000000.000,-51.800
4208.882,325.000,-5.005,436000000.000,-51.673
4209.430,326.000,-4.864,436000000.000,-51.532
4209.915,327.000,-4.758,436000000.000,-51.427
4210.373,328.000,-4.670,435999839.744,-51.338
4210.846,329.000,-4.553,436000000.000,-51.221
4211.363,330.000,-4.442,436000000.000,-51.111
4211.872,331.000,-4.342,435999839.744,-51.010
4212.399,332.000,-4.241,436000000.000,-50.909
4212.943,333.000,-4.121,436000000.000,-50.789
4213.457,334.000,-4.038,435999839.744,-50.706
4213.996,335.000,-3.937,436000000.000,-50.605
4214.553,336.000,-3.851,435999839.744,-50.519
4215.084,337.000,-3.763,436000000.000,-50.431
4215.637,338.000,-3.665,436000000.000,-50.334
4216.154,339.000,-3.596,436000000.000,-50.265
4216.702,340.000,-3.509,436000000.000,-50.177
4217.245,341.000,-3.431,436000000.000,-50.099
4217.760,342.000,-3.363,435999839.744,-50.032
4218.179,343.000,-3.293,436000000.000,-49.962
4218.653,344.000,-3.235,435999839.744,-49.904
4219.157,345.000,-3.169,436000000.000,-49.838
4219.650,346.000,-3.103,435999839.744,-49.771
4220.165,347.000,-3.037,436000000.000,-49.705
4220.690,348.000,-2.974,436000000.000,-49.642
4221.240,349.000,-2.918,435999839.744,-49.586
4221.803,350.000,-2.862,436000000.000,-49.530
4222.326,351.000,-2.807,436000000.000,-49.475
4222.869,352.000,-2.757,436000000.000,-49.425
4223.413,353.000,-2.712,436000000.000,-49.381
4223.960,354.000,-2.662,436000000.000,-49.330
4224.500,355.000,-2.630,436000000.000,-49.298
4225.050,356.000,-2.580,436000000.000,-49.249
4225.614,357.000,-2.542,436000000.000,-49.210
4226.166,358.000,-2.515,436000000.000,-49.184
4226.674,359.000,-2.497,436000000.000,-49.165
4227.165,360.000,-2.467,436000000.000,-49.136
